"","STUDYID","DOMAIN","USUBJID","SUBJID","RFSTDTC","RFENDTC","SITEID","BRTHDTC","AGE","AGEU","SEX","RACE","ETHNIC","ARMCD","ARM","COUNTRY"
"1","CDISC01","DM","CDISC01.100008","100008","2003-04-29","2003-10-12","100","1930-08-05",72,"YEARS","M","OTHER","NOT HISPANIC OR LATINO","WONDER10","Miracle Drug 10 mg","USA"
"2","CDISC01","DM","CDISC01.100014","100014","2003-10-15","2004-03-29","100","1936-11-01",66,"YEARS","F","WHITE","NOT HISPANIC OR LATINO","WONDER20","Miracle Drug 20 mg","USA"
"3","CDISC01","DM","CDISC01.200001","200001","2003-09-30","2004-02-02","200","1923-09-03",80,"YEARS","F","MULTIPLE","NOT HISPANIC OR LATINO","PLACEBO","Placebo","USA"
"4","CDISC01","DM","CDISC01.200002","200002","2003-10-10","2004-03-28","200","1933-07-22",70,"YEARS","F","BLACK OR AFRICAN AMERICAN","NOT HISPANIC OR LATINO","WONDER10","Miracle Drug 10 mg","USA"
"5","CDISC01","DM","CDISC01.200005","200005","","","200","1937-02-22",66,"YEARS","F","WHITE","NOT HISPANIC OR LATINO","SCRNFAIL","Screen Failure","USA"
