"","STUDYID","DOMAIN","USUBJID","IESEQ","IETESTCD","IETEST","IECAT","IEORRES","IESTRESC","VISITNUM","VISIT","IEDTC"
"1","CDISC01","IE","CDISC01.200005",1,"INCL03","Did not respond to a standard course of medication Abc","INCLUSION","N","N",1,"SCREEN","2003-09-15"
