"","STUDYID","DOMAIN","USUBJID","LBSEQ","LBREFID","LBTESTCD","LBTEST","LBCAT","LBORRES","LBORRESU","LBORNRLO","LBORNRHI","LBSTRESC","LBSTRESN","LBSTRESU","LBSTNRLO","LBSTNRHI","LBSTNRC","LBNRIND","LBSPEC","LBMETHOD","LBBLFL","LBFAST","VISITNUM","VISIT","VISITDY","LBDTC","LBDY"
"1","CDISC01","LB","CDISC01.100008",1,"B232115","BILI","Bilirubin","CHEMISTRY","0.4","mg/dL",".0","1.1","6.8",6.8,"umol/L",0,18.8,"","NORMAL","BLOOD","","Y","Y",1,"SCREEN",-13,"2003-04-15T11:20",-14
"2","CDISC01","LB","CDISC01.100008",2,"B290028","BILI","Bilirubin","CHEMISTRY","0.3","mg/dL",".0","1.1","5.1",5.1,"umol/L",0,18.8,"","NORMAL","BLOOD","","","N",10,"WEEK 24",169,"2003-10-13T11:55",168
"3","CDISC01","LB","CDISC01.100008",3,"B232115","BUN","Blood Urea Nitrogen","CHEMISTRY","26","mg/dL","9","24","9.28",9.28,"mmol/L",3.21,8.57,"","HIGH","BLOOD","","Y","Y",1,"SCREEN",-13,"2003-04-15T11:20",-14
"4","CDISC01","LB","CDISC01.100008",4,"B290028","BUN","Blood Urea Nitrogen","CHEMISTRY","18","mg/dL","9","24","6.43",6.43,"mmol/L",3.21,8.57,"","NORMAL","BLOOD","","","N",10,"WEEK 24",169,"2003-10-13T11:55",168
"5","CDISC01","LB","CDISC01.100008",5,"B232115","GLUC","Glucose","CHEMISTRY","100","mg/dL","68","110","5.5",5.5,"mmol/L",3.8,6.1,"","NORMAL","BLOOD","","Y","Y",1,"SCREEN",-13,"2003-04-15T11:20",-14
"6","CDISC01","LB","CDISC01.100008",6,"B290028","GLUC","Glucose","CHEMISTRY","87","mg/dL","68","110","4.8",4.8,"mmol/L",3.8,6.1,"","NORMAL","BLOOD","","","Y",10,"WEEK 24",169,"2003-10-13T11:55",168
"7","CDISC01","LB","CDISC01.100008",7,"B232115","VITB12","Vitamin B12","CHEMISTRY","366","pg/mL","220","960","270",270,"pmol/L",162,708,"","NORMAL","SERUM","","Y","Y",1,"SCREEN",-13,"2003-04-15T11:20",-14
"8","CDISC01","LB","CDISC01.100008",8,"B232115","VITB9","Vitamin B9","CHEMISTRY","55.8","ng/dL","3.0","17.0","126.4",126.4,"nmol/L",6.8,38.5,"","HIGH","BLOOD","","Y","Y",1,"SCREEN",-13,"2003-04-15T11:20",-14
"9","CDISC01","LB","CDISC01.100008",9,"B232115","HCT","Hematocrit","HEMATOLOGY","36.2","%","40.0","54.0","0.36",0.36,"",0.4,0.54,"","LOW","BLOOD","","Y","Y",1,"SCREEN",-13,"2003-04-15T11:20",-14
"10","CDISC01","LB","CDISC01.100008",10,"B290028","HCT","Hematocrit","HEMATOLOGY","32.9","%","40.0","54.0","0.33",0.33,"",0.4,0.54,"","LOW","BLOOD","","","N",10,"WEEK 24",169,"2003-10-13T11:55",168
"11","CDISC01","LB","CDISC01.100008",11,"B232115","HGB","Hemoglobin","HEMATOLOGY","12.0","g/dL","13.2","17.0","120",120,"g/L",132,170,"","LOW","BLOOD","","Y","Y",1,"SCREEN",-13,"2003-04-15T11:20",-14
"12","CDISC01","LB","CDISC01.100008",12,"B290028","HGB","Hemoglobin","HEMATOLOGY","11.3","g/dL","13.2","17.0","113",113,"g/L",132,170,"","LOW","BLOOD","","","N",10,"WEEK 24",169,"2003-10-13T11:55",168
"13","CDISC01","LB","CDISC01.100008",13,"B232115","LYM","Lymphocytes","HEMATOLOGY","1.68","X10^9/L","1.20","4.00","1.68",1.68,"10**9/L",1.2,4,"","NORMAL","BLOOD","","Y","Y",1,"SCREEN",-13,"2003-04-15T11:20",-14
"14","CDISC01","LB","CDISC01.100008",14,"B290028","LYM","Lymphocytes","HEMATOLOGY","1.34","X10^9/L","1.20","4.00","1.34",1.34,"10**9/L",1.2,4,"","NORMAL","BLOOD","","","N",10,"WEEK 24",169,"2003-10-13T11:55",168
"15","CDISC01","LB","CDISC01.100008",15,"B232115","OCCBLD","Occult Blood","URINALYSIS","1+","","","","1+",NA,"",NA,NA,"NEGATIVE - NEGATIVE","HIGH","URINE","","Y","N",1,"SCREEN",-13,"2003-04-15T11:20",-14
"16","CDISC01","LB","CDISC01.100008",16,"B290028","OCCBLD","Occult Blood","URINALYSIS","NEGATIVE","","","","NEGATIVE",NA,"",NA,NA,"NEGATIVE - NEGATIVE","NORMAL","URINE","","","N",10,"WEEK 24",169,"2003-10-13T11:55",168
"17","CDISC01","LB","CDISC01.100008",17,"B232115","PH","pH","URINALYSIS","8.0","","5.0","8.0","8",8,"",5,8,"","NORMAL","URINE","","Y","N",1,"SCREEN",-13,"2003-04-15T11:20",-14
"18","CDISC01","LB","CDISC01.100008",18,"B290028","PH","pH","URINALYSIS","8.0","","5.0","8.0","8",8,"",5,8,"","NORMAL","URINE","","","N",10,"WEEK 24",169,"2003-10-13T11:55",168
"19","CDISC01","LB","CDISC01.100008",19,"B232115","GLUC","Glucose","URINALYSIS","NEGATIVE","","","","NEGATIVE",NA,"",NA,NA,"NEGATIVE TO TRACE","NORMAL","URINE","DIPSTICK","Y","N",1,"SCREEN",-13,"2003-04-15T11:20",-14
"20","CDISC01","LB","CDISC01.100008",20,"B290028","GLUC","Glucose","URINALYSIS","TRACE","","","","TRACE",NA,"",NA,NA,"NEGATIVE TO TRACE","NORMAL","URINE","DIPSTICK","","N",10,"WEEK 24",169,"2003-10-13T11:55",168
"21","CDISC01","LB","CDISC01.100008",21,"B232115","GLUC","Glucose","URINALYSIS","10","mg/dL","0","30","0.6",0.6,"mmol/L",0,1.7,"","NORMAL","URINE","QUANT","Y","N",1,"SCREEN",-13,"2003-04-15T11:20",-14
"22","CDISC01","LB","CDISC01.100008",22,"B290028","GLUC","Glucose","URINALYSIS","30","mg/dL","0","30","1.7",1.7,"mmol/L",0,1.7,"","NORMAL","URINE","QUANT","","N",10,"WEEK 24",169,"2003-10-13T11:55",168
"23","CDISC01","LB","CDISC01.100014",1,"B287871","BILI","Bilirubin","CHEMISTRY","0.3","mg/dL",".0","1.1","5.1",5.1,"umol/L",0,18.8,"","NORMAL","BLOOD","","Y","N",1,"SCREEN",-13,"2003-10-06T11:30",-9
"24","CDISC01","LB","CDISC01.100014",2,"B357932","BILI","Bilirubin","CHEMISTRY","0.2","mg/dL",".0","1.1","3.4",3.4,"umol/L",0,18.8,"","NORMAL","BLOOD","","","N",10,"WEEK 24",169,"2004-03-30T14:50",168
"25","CDISC01","LB","CDISC01.100014",3,"B287871","BUN","Blood Urea Nitrogen","CHEMISTRY","16","mg/dL","9","24","5.71",5.71,"mmol/L",3.21,8.57,"","NORMAL","BLOOD","","Y","N",1,"SCREEN",-13,"2003-10-06T11:30",-9
"26","CDISC01","LB","CDISC01.100014",4,"B357932","BUN","Blood Urea Nitrogen","CHEMISTRY","14","mg/dL","9","24","5",5,"mmol/L",3.21,8.57,"","NORMAL","BLOOD","","","N",10,"WEEK 24",169,"2004-03-30T14:50",168
"27","CDISC01","LB","CDISC01.100014",5,"B287871","GLUC","Glucose","CHEMISTRY","115","mg/dL","68","110","6.4",6.4,"mmol/L",3.8,6.1,"","HIGH","BLOOD","","Y","N",1,"SCREEN",-13,"2003-10-06T11:30",-9
"28","CDISC01","LB","CDISC01.100014",6,"B287871","VITB12","Vitamin B12","CHEMISTRY","322","pg/mL","220","960","238",238,"pmol/L",162,708,"","NORMAL","SERUM","","Y","N",1,"SCREEN",-13,"2003-10-06T11:30",-9
"29","CDISC01","LB","CDISC01.100014",7,"B287871","VITB9","Vitamin B9","CHEMISTRY","23.3","ng/dL","3.0","17.0","52.8",52.8,"nmol/L",6.8,38.5,"","HIGH","BLOOD","","Y","N",1,"SCREEN",-13,"2003-10-06T11:30",-9
"30","CDISC01","LB","CDISC01.100014",8,"B287871","HCT","Hematocrit","HEMATOLOGY","41.9","%","35.0","47.0","0.42",0.42,"",0.35,0.47,"","NORMAL","BLOOD","","Y","N",1,"SCREEN",-13,"2003-10-06T11:30",-9
"31","CDISC01","LB","CDISC01.100014",9,"B357932","HCT","Hematocrit","HEMATOLOGY","39.9","%","35.0","47.0","0.40",0.4,"",0.35,0.47,"","NORMAL","BLOOD","","","N",10,"WEEK 24",169,"2004-03-30T14:50",168
"32","CDISC01","LB","CDISC01.100014",10,"B287871","HGB","Hemoglobin","HEMATOLOGY","13.7","g/dL","11.5","15.5","137",137,"g/L",115,155,"","NORMAL","BLOOD","","Y","N",1,"SCREEN",-13,"2003-10-06T11:30",-9
"33","CDISC01","LB","CDISC01.100014",11,"B357932","HGB","Hemoglobin","HEMATOLOGY","13.0","g/dL","11.5","15.5","130",130,"g/L",115,155,"","NORMAL","BLOOD","","","N",10,"WEEK 24",169,"2004-03-30T14:50",168
"34","CDISC01","LB","CDISC01.100014",12,"B287871","LYM","Lymphocytes","HEMATOLOGY","1.81","X10^9/L","1.20","4.00","1.81",1.81,"10**9/L",1.2,4,"","NORMAL","BLOOD","","Y","N",1,"SCREEN",-13,"2003-10-06T11:30",-9
"35","CDISC01","LB","CDISC01.100014",13,"B357932","LYM","Lymphocytes","HEMATOLOGY","1.48","X10^9/L","1.20","4.00","1.48",1.48,"10**9/L",1.2,4,"","NORMAL","BLOOD","","","N",10,"WEEK 24",169,"2004-03-30T14:50",168
"36","CDISC01","LB","CDISC01.100014",14,"B287871","OCCBLD","Occult Blood","URINALYSIS","NEGATIVE","","","","NEGATIVE",NA,"",NA,NA,"NEGATIVE - NEGATIVE","NORMAL","URINE","","Y","N",1,"SCREEN",-13,"2003-10-06T11:30",-9
"37","CDISC01","LB","CDISC01.100014",15,"B287871","PH","pH","URINALYSIS","6.0","","5.0","8.0","6",6,"",5,8,"","NORMAL","URINE","","Y","N",1,"SCREEN",-13,"2003-10-06T11:30",-9
"38","CDISC01","LB","CDISC01.100014",16,"B287871","GLUC","Glucose","URINALYSIS","1+","","","","1+",NA,"",NA,NA,"NEGATIVE TO TRACE","HIGH","URINE","DIPSTICK","Y","N",1,"SCREEN",-13,"2003-10-06T11:30",-9
"39","CDISC01","LB","CDISC01.100014",17,"B287871","GLUC","Glucose","URINALYSIS","35","mg/dL","0","30","1.9",1.9,"mmol/L",0,1.7,"","HIGH","URINE","QUANT","Y","N",1,"SCREEN",-13,"2003-10-06T11:30",-9
"40","CDISC01","LB","CDISC01.200001",1,"B279926","BILI","Bilirubin","CHEMISTRY","0.3","mg/dL",".0","1.1","5.1",5.1,"umol/L",0,18.8,"","NORMAL","BLOOD","","Y","N",1,"SCREEN",-13,"2003-09-09T11:02",-21
"41","CDISC01","LB","CDISC01.200001",2,"B332059","BILI","Bilirubin","CHEMISTRY","0.3","mg/dL",".0","1.1","5.1",5.1,"umol/L",0,18.8,"","NORMAL","BLOOD","","","N",10,"WEEK 24",169,"2004-02-02T08:58",126
"42","CDISC01","LB","CDISC01.200001",3,"B279926","BUN","Blood Urea Nitrogen","CHEMISTRY","12","mg/dL","9","24","4.28",4.28,"mmol/L",3.21,8.57,"","NORMAL","BLOOD","","Y","N",1,"SCREEN",-13,"2003-09-09T11:02",-21
"43","CDISC01","LB","CDISC01.200001",4,"B332059","BUN","Blood Urea Nitrogen","CHEMISTRY","15","mg/dL","9","24","5.36",5.36,"mmol/L",3.21,8.57,"","NORMAL","BLOOD","","","N",10,"WEEK 24",169,"2004-02-02T08:58",126
"44","CDISC01","LB","CDISC01.200001",5,"B279926","GLUC","Glucose","CHEMISTRY","94","mg/dL","68","110","5.2",5.2,"mmol/L",3.8,6.1,"","NORMAL","BLOOD","","Y","Y",1,"SCREEN",-13,"2003-09-09T11:02",-21
"45","CDISC01","LB","CDISC01.200001",6,"B332059","GLUC","Glucose","CHEMISTRY","100","mg/dL","68","110","5.5",5.5,"mmol/L",3.8,6.1,"","NORMAL","BLOOD","","","N",10,"WEEK 24",169,"2004-02-02T08:58",126
"46","CDISC01","LB","CDISC01.200001",7,"B279926","VITB12","Vitamin B12","CHEMISTRY","512","pg/mL","220","960","378",378,"pmol/L",162,708,"","NORMAL","SERUM","","Y","N",1,"SCREEN",-13,"2003-09-09T11:02",-21
"47","CDISC01","LB","CDISC01.200001",8,"B279926","VITB9","Vitamin B9","CHEMISTRY","42.4","ng/dL","3.0","17.0","96.1",96.1,"nmol/L",6.8,38.5,"","HIGH","BLOOD","","Y","N",1,"SCREEN",-13,"2003-09-09T11:02",-21
"48","CDISC01","LB","CDISC01.200001",9,"B279926","HCT","Hematocrit","HEMATOLOGY","45.7","%","35.0","47.0","0.46",0.46,"",0.35,0.47,"","NORMAL","BLOOD","","Y","N",1,"SCREEN",-13,"2003-09-09T11:02",-21
"49","CDISC01","LB","CDISC01.200001",10,"B332059","HCT","Hematocrit","HEMATOLOGY","42.8","%","35.0","47.0","0.43",0.43,"",0.35,0.47,"","NORMAL","BLOOD","","","N",10,"WEEK 24",169,"2004-02-02T08:58",126
"50","CDISC01","LB","CDISC01.200001",11,"B279926","HGB","Hemoglobin","HEMATOLOGY","14.0","g/dL","11.5","15.5","140",140,"g/L",115,155,"","NORMAL","BLOOD","","Y","N",1,"SCREEN",-13,"2003-09-09T11:02",-21
"51","CDISC01","LB","CDISC01.200001",12,"B332059","HGB","Hemoglobin","HEMATOLOGY","13.5","g/dL","11.5","15.5","135",135,"g/L",115,155,"","NORMAL","BLOOD","","","N",10,"WEEK 24",169,"2004-02-02T08:58",126
"52","CDISC01","LB","CDISC01.200001",13,"B279926","LYM","Lymphocytes","HEMATOLOGY","1.29","X10^9/L","1.20","4.00","1.29",1.29,"10**9/L",1.2,4,"","NORMAL","BLOOD","","Y","N",1,"SCREEN",-13,"2003-09-09T11:02",-21
"53","CDISC01","LB","CDISC01.200001",14,"B332059","LYM","Lymphocytes","HEMATOLOGY","1.37","X10^9/L","1.20","4.00","1.37",1.37,"10**9/L",1.2,4,"","NORMAL","BLOOD","","","N",10,"WEEK 24",169,"2004-02-02T08:58",126
"54","CDISC01","LB","CDISC01.200001",15,"B279926","OCCBLD","Occult Blood","URINALYSIS","NEGATIVE","","","","NEGATIVE",NA,"",NA,NA,"NEGATIVE - NEGATIVE","NORMAL","URINE","","Y","N",1,"SCREEN",-13,"2003-09-09T11:02",-21
"55","CDISC01","LB","CDISC01.200001",16,"B332059","OCCBLD","Occult Blood","URINALYSIS","NEGATIVE","","","","NEGATIVE",NA,"",NA,NA,"NEGATIVE - NEGATIVE","NORMAL","URINE","","","N",10,"WEEK 24",169,"2004-02-02T08:58",126
"56","CDISC01","LB","CDISC01.200001",17,"B279926","PH","pH","URINALYSIS","7.0","","5.0","8.0","7",7,"",5,8,"","NORMAL","URINE","","Y","N",1,"SCREEN",-13,"2003-09-09T11:02",-21
"57","CDISC01","LB","CDISC01.200001",18,"B332059","PH","pH","URINALYSIS","7.0","","5.0","8.0","7",7,"",5,8,"","NORMAL","URINE","","","N",10,"WEEK 24",169,"2004-02-02T08:58",126
"58","CDISC01","LB","CDISC01.200001",19,"B279926","GLUC","Glucose","URINALYSIS","NEGATIVE","","","","NEGATIVE",NA,"",NA,NA,"NEGATIVE TO TRACE","NORMAL","URINE","DIPSTICK","Y","N",1,"SCREEN",-13,"2003-09-09T11:02",-21
"59","CDISC01","LB","CDISC01.200001",20,"B332059","GLUC","Glucose","URINALYSIS","NEGATIVE","","","","NEGATIVE",NA,"",NA,NA,"NEGATIVE TO TRACE","NORMAL","URINE","DIPSTICK","","N",10,"WEEK 24",169,"2004-02-02T08:58",126
"60","CDISC01","LB","CDISC01.200001",21,"B279926","GLUC","Glucose","URINALYSIS","0","mg/dL","0","30","0",0,"mmol/L",0,1.7,"","NORMAL","URINE","QUANT","Y","N",1,"SCREEN",-13,"2003-09-09T11:02",-21
"61","CDISC01","LB","CDISC01.200001",22,"B332059","GLUC","Glucose","URINALYSIS","4","mg/dL","0","30","0.2",0.2,"mmol/L",0,1.7,"","NORMAL","URINE","QUANT","","N",10,"WEEK 24",169,"2004-02-02T08:58",126
"62","CDISC01","LB","CDISC01.200002",1,"B283499","BILI","Bilirubin","CHEMISTRY","0.3","mg/dL",".0","1.1","5.1",5.1,"umol/L",0,18.8,"","NORMAL","BLOOD","","Y","N",1,"SCREEN",-13,"2003-09-19T14:45",-21
"63","CDISC01","LB","CDISC01.200002",2,"B357223","BILI","Bilirubin","CHEMISTRY","0.4","mg/dL",".0","1.1","6.8",6.8,"umol/L",0,18.8,"","NORMAL","BLOOD","","","N",10,"WEEK 24",169,"2004-03-29T09:40",172
"64","CDISC01","LB","CDISC01.200002",3,"B283499","BUN","Blood Urea Nitrogen","CHEMISTRY","13","mg/dL","9","24","4.64",4.64,"mmol/L",3.21,8.57,"","NORMAL","BLOOD","","Y","N",1,"SCREEN",-13,"2003-09-19T14:45",-21
"65","CDISC01","LB","CDISC01.200002",4,"B357223","BUN","Blood Urea Nitrogen","CHEMISTRY","15","mg/dL","9","24","5.36",5.36,"mmol/L",3.21,8.57,"","NORMAL","BLOOD","","","N",10,"WEEK 24",169,"2004-03-29T09:40",172
"66","CDISC01","LB","CDISC01.200002",5,"B283499","GLUC","Glucose","CHEMISTRY","74","mg/dL","68","110","4.1",4.1,"mmol/L",3.8,6.1,"","NORMAL","BLOOD","","Y","N",1,"SCREEN",-13,"2003-09-19T14:45",-21
"67","CDISC01","LB","CDISC01.200002",6,"B357223","GLUC","Glucose","CHEMISTRY","51","mg/dL","68","110","2.8",2.8,"mmol/L",3.8,6.1,"","LOW","BLOOD","","","N",10,"WEEK 24",169,"2004-03-29T09:40",172
"68","CDISC01","LB","CDISC01.200002",7,"B283499","VITB12","Vitamin B12","CHEMISTRY","1069","pg/mL","220","960","789",789,"pmol/L",162,708,"","HIGH","SERUM","","Y","N",1,"SCREEN",-13,"2003-09-19T14:45",-21
"69","CDISC01","LB","CDISC01.200002",8,"B283499","VITB9","Vitamin B9","CHEMISTRY","29.9","ng/dL","3.0","17.0","67.8",67.8,"nmol/L",6.8,38.5,"","HIGH","BLOOD","","Y","N",1,"SCREEN",-13,"2003-09-19T14:45",-21
"70","CDISC01","LB","CDISC01.200002",9,"B283499","HCT","Hematocrit","HEMATOLOGY","44.1","%","35.0","47.0","0.44",0.44,"",0.35,0.47,"","NORMAL","BLOOD","","Y","N",1,"SCREEN",-13,"2003-09-19T14:45",-21
"71","CDISC01","LB","CDISC01.200002",10,"B357223","HCT","Hematocrit","HEMATOLOGY","40.5","%","35.0","47.0","0.41",0.41,"",0.35,0.47,"","NORMAL","BLOOD","","","N",10,"WEEK 24",169,"2004-03-29T09:40",172
"72","CDISC01","LB","CDISC01.200002",11,"B283499","HGB","Hemoglobin","HEMATOLOGY","14.2","g/dL","11.5","15.5","142",142,"g/L",115,155,"","NORMAL","BLOOD","","Y","N",1,"SCREEN",-13,"2003-09-19T14:45",-21
"73","CDISC01","LB","CDISC01.200002",12,"B357223","HGB","Hemoglobin","HEMATOLOGY","13.4","g/dL","11.5","15.5","134",134,"g/L",115,155,"","NORMAL","BLOOD","","","N",10,"WEEK 24",169,"2004-03-29T09:40",172
"74","CDISC01","LB","CDISC01.200002",13,"B283499","LYM","Lymphocytes","HEMATOLOGY","0.83","X10^9/L","1.20","4.00","0.83",0.83,"10**9/L",1.2,4,"","LOW","BLOOD","","Y","N",1,"SCREEN",-13,"2003-09-19T14:45",-21
"75","CDISC01","LB","CDISC01.200002",14,"B357223","LYM","Lymphocytes","HEMATOLOGY","0.75","X10^9/L","1.20","4.00","0.75",0.75,"10**9/L",1.2,4,"","LOW","BLOOD","","","N",10,"WEEK 24",169,"2004-03-29T09:40",172
"76","CDISC01","LB","CDISC01.200002",15,"B283499","OCCBLD","Occult Blood","URINALYSIS","NEGATIVE","","","","NEGATIVE",NA,"",NA,NA,"NEGATIVE - NEGATIVE","NORMAL","URINE","","Y","N",1,"SCREEN",-13,"2003-09-19T14:45",-21
"77","CDISC01","LB","CDISC01.200002",16,"B357223","OCCBLD","Occult Blood","URINALYSIS","NEGATIVE","","","","NEGATIVE",NA,"",NA,NA,"NEGATIVE - NEGATIVE","NORMAL","URINE","","","N",10,"WEEK 24",169,"2004-03-29T09:40",172
"78","CDISC01","LB","CDISC01.200002",17,"B283499","PH","pH","URINALYSIS","7.0","","5.0","8.0","7",7,"",5,8,"","NORMAL","URINE","","Y","N",1,"SCREEN",-13,"2003-09-19T14:45",-21
"79","CDISC01","LB","CDISC01.200002",18,"B357223","PH","pH","URINALYSIS","8.0","","5.0","8.0","8",8,"",5,8,"","NORMAL","URINE","","","N",10,"WEEK 24",169,"2004-03-29T09:40",172
"80","CDISC01","LB","CDISC01.200002",19,"B283499","GLUC","Glucose","URINALYSIS","TRACE","","","","TRACE",NA,"",NA,NA,"NEGATIVE TO TRACE","NORMAL","URINE","DIPSTICK","Y","N",1,"SCREEN",-13,"2003-09-19T14:45",-21
"81","CDISC01","LB","CDISC01.200002",20,"B357223","GLUC","Glucose","URINALYSIS","NEGATIVE","","","","NEGATIVE",NA,"",NA,NA,"NEGATIVE TO TRACE","NORMAL","URINE","DIPSTICK","","N",10,"WEEK 24",169,"2004-03-29T09:40",172
"82","CDISC01","LB","CDISC01.200002",21,"B283499","GLUC","Glucose","URINALYSIS","20","mg/dL","0","30","1.1",1.1,"mmol/L",0,1.7,"","NORMAL","URINE","QUANT","Y","N",1,"SCREEN",-13,"2003-09-19T14:45",-21
"83","CDISC01","LB","CDISC01.200002",22,"B357223","GLUC","Glucose","URINALYSIS","10","mg/dL","0","30","0.6",0.6,"mmol/L",0,1.7,"","NORMAL","URINE","QUANT","","N",10,"WEEK 24",169,"2004-03-29T09:40",172
