"","STUDYID","RDOMAIN","USUBJID","IDVAR","IDVARVAL","QNAM","QLABEL","QVAL","QORIG","QEVAL"
"1","CDISC01","QS","CDISC01.100008","QSCAT","MINI MENTAL STATE EXAMINATION (MMSE)","RTRINIT","Rater Initials","JSR","CRF",""
"2","CDISC01","QS","CDISC01.100014","QSCAT","MINI MENTAL STATE EXAMINATION (MMSE)","RTRINIT","Rater Initials","M-T","CRF",""
"3","CDISC01","QS","CDISC01.200001","QSCAT","MINI MENTAL STATE EXAMINATION (MMSE)","RTRINIT","Rater Initials","KMJ","CRF",""
"4","CDISC01","QS","CDISC01.200002","QSCAT","MINI MENTAL STATE EXAMINATION (MMSE)","RTRINIT","Rater Initials","KMJ","CRF",""
