"","STUDYID","RDOMAIN","USUBJID","IDVAR","IDVARVAL","QNAM","QLABEL","QVAL","QORIG","QEVAL"
"1","CDISC01","EG","CDISC01.100008","EGSEQ","1","EGCLSIG","Clinically Significant","N","CRF","INVESTIGATOR"
"2","CDISC01","EG","CDISC01.100008","EGSEQ","2","EGCLSIG","Clinically Significant","N","CRF","INVESTIGATOR"
"3","CDISC01","EG","CDISC01.100014","EGSEQ","1","EGCLSIG","Clinically Significant","N","CRF","INVESTIGATOR"
"4","CDISC01","EG","CDISC01.100014","EGSEQ","2","EGCLSIG","Clinically Significant","N","CRF","INVESTIGATOR"
"5","CDISC01","EG","CDISC01.200002","EGSEQ","1","EGCLSIG","Clinically Significant","N","CRF","INVESTIGATOR"
"6","CDISC01","EG","CDISC01.200002","EGSEQ","2","EGCLSIG","Clinically Significant","N","CRF","INVESTIGATOR"
