"","STUDYID","RDOMAIN","USUBJID","IDVAR","IDVARVAL","QNAM","QLABEL","QVAL","QORIG","QEVAL"
"1","CDISC01","QS","CDISC01.100008","QSCAT","CORNELL SCALE FOR DEPRESSION IN DEMENTIA (CSDD)","RTRINIT","Rater Initials","K-D","CRF",""
"2","CDISC01","QS","CDISC01.100014","QSCAT","CORNELL SCALE FOR DEPRESSION IN DEMENTIA (CSDD)","RTRINIT","Rater Initials","K-D","CRF",""
"3","CDISC01","QS","CDISC01.200001","QSCAT","CORNELL SCALE FOR DEPRESSION IN DEMENTIA (CSDD)","RTRINIT","Rater Initials","TWL","CRF",""
"4","CDISC01","QS","CDISC01.200002","QSCAT","CORNELL SCALE FOR DEPRESSION IN DEMENTIA (CSDD)","RTRINIT","Rater Initials","BNJ","CRF",""
