"","STUDYID","RDOMAIN","USUBJID","IDVAR","IDVARVAL","QNAM","QLABEL","QVAL","QORIG","QEVAL"
"1","CDISC01","VS","CDISC01.100014","VSSEQ","18","VSCLSIG","Clinically Significant","Y","Derived","CLINICAL STUDY SPONSOR"
