"","STUDYID","RDOMAIN","USUBJID","IDVAR","IDVARVAL","QNAM","QLABEL","QVAL","QORIG","QEVAL"
"1","CDISC01","QS","CDISC01.100008","QSCAT","CLINICAL GLOBAL IMPRESSIONS (CGI-I)","RTRINIT","Rater Initials","JSR","CRF",""
"2","CDISC01","QS","CDISC01.200001","QSCAT","CLINICAL GLOBAL IMPRESSIONS (CGI-I)","RTRINIT","Rater Initials","TWL","CRF",""
"3","CDISC01","QS","CDISC01.200002","QSCAT","CLINICAL GLOBAL IMPRESSIONS (CGI-I)","RTRINIT","Rater Initials","BNJ","CRF",""
