"","STUDYID","RDOMAIN","USUBJID","IDVAR","IDVARVAL","QNAM","QLABEL","QVAL","QORIG","QEVAL"
"1","CDISC01","LB","CDISC01.100008","LBSEQ","10","LBCLSIG","Clinically Significant","Y","Derived","CLINICAL STUDY SPONSOR"
"2","CDISC01","LB","CDISC01.100008","LBSEQ","12","LBCLSIG","Clinically Significant","Y","Derived","CLINICAL STUDY SPONSOR"
