"","STUDYID","DOMAIN","USUBJID","VSSEQ","VSTESTCD","VSTEST","VSPOS","VSORRES","VSORRESU","VSSTRESC","VSSTRESN","VSSTRESU","VSBLFL","VISITNUM","VISIT","VISITDY","VSDTC","VSDY"
"1","CDISC01","VS","CDISC01.100008",1,"DIABP","Diastolic Blood Pressure","SITTING","74","mmHg","74",74,"mmHg","",1,"SCREEN",-13,"2003-04-15",-14
"2","CDISC01","VS","CDISC01.100008",2,"DIABP","Diastolic Blood Pressure","SITTING","88","mmHg","88",88,"mmHg","Y",2,"BASELINE",1,"2003-04-29",1
"3","CDISC01","VS","CDISC01.100008",3,"DIABP","Diastolic Blood Pressure","SITTING","78","mmHg","78",78,"mmHg","",3,"WEEK 2",15,"2003-05-13",15
"4","CDISC01","VS","CDISC01.100008",4,"DIABP","Diastolic Blood Pressure","SITTING","90","mmHg","90",90,"mmHg","",10,"WEEK 24",169,"2003-10-13",168
"5","CDISC01","VS","CDISC01.100008",5,"FRMSIZE","Body Frame Size","","LARGE","","LARGE",NA,"","",1,"SCREEN",-13,"2003-04-15",-14
"6","CDISC01","VS","CDISC01.100008",6,"HEIGHT","Height","","66","IN","167.6",167.6,"cm","Y",1,"SCREEN",-13,"2003-04-15",-14
"7","CDISC01","VS","CDISC01.100008",7,"PULSE","Pulse Rate","","74","BEATS/MIN","74",74,"BEATS/MIN","",1,"SCREEN",-13,"2003-04-15",-14
"8","CDISC01","VS","CDISC01.100008",8,"PULSE","Pulse Rate","","84","BEATS/MIN","84",84,"BEATS/MIN","Y",2,"BASELINE",1,"2003-04-29",1
"9","CDISC01","VS","CDISC01.100008",9,"PULSE","Pulse Rate","","76","BEATS/MIN","76",76,"BEATS/MIN","",3,"WEEK 2",15,"2003-05-13",15
"10","CDISC01","VS","CDISC01.100008",10,"PULSE","Pulse Rate","","80","BEATS/MIN","80",80,"BEATS/MIN","",10,"WEEK 24",169,"2003-10-13",168
"11","CDISC01","VS","CDISC01.100008",11,"SYSBP","Systolic Blood Pressure","SITTING","122","mmHg","122",122,"mmHg","",1,"SCREEN",-13,"2003-04-15",-14
"12","CDISC01","VS","CDISC01.100008",12,"SYSBP","Systolic Blood Pressure","SITTING","146","mmHg","146",146,"mmHg","Y",2,"BASELINE",1,"2003-04-29",1
"13","CDISC01","VS","CDISC01.100008",13,"SYSBP","Systolic Blood Pressure","SITTING","142","mmHg","142",142,"mmHg","",3,"WEEK 2",15,"2003-05-13",15
"14","CDISC01","VS","CDISC01.100008",14,"SYSBP","Systolic Blood Pressure","SITTING","140","mmHg","140",140,"mmHg","",10,"WEEK 24",169,"2003-10-13",168
"15","CDISC01","VS","CDISC01.100008",15,"WEIGHT","Weight","","154","LB","69.9",69.9,"kg","",1,"SCREEN",-13,"2003-04-15",-14
"16","CDISC01","VS","CDISC01.100008",16,"WEIGHT","Weight","","156","LB","70.8",70.8,"kg","Y",2,"BASELINE",1,"2003-04-29",1
"17","CDISC01","VS","CDISC01.100008",17,"WEIGHT","Weight","","159","LB","72.1",72.1,"kg","",3,"WEEK 2",15,"2003-05-13",15
"18","CDISC01","VS","CDISC01.100008",18,"WEIGHT","Weight","","157","LB","71.2",71.2,"kg","",10,"WEEK 24",169,"2003-10-13",168
"19","CDISC01","VS","CDISC01.100014",1,"DIABP","Diastolic Blood Pressure","SITTING","60","mmHg","60",60,"mmHg","",1,"SCREEN",-13,"2003-10-06",-9
"20","CDISC01","VS","CDISC01.100014",2,"DIABP","Diastolic Blood Pressure","SITTING","70","mmHg","70",70,"mmHg","Y",2,"BASELINE",1,"2003-10-15",1
"21","CDISC01","VS","CDISC01.100014",3,"DIABP","Diastolic Blood Pressure","SITTING","70","mmHg","70",70,"mmHg","",3,"WEEK 2",15,"2003-10-31",17
"22","CDISC01","VS","CDISC01.100014",4,"DIABP","Diastolic Blood Pressure","SITTING","68","mmHg","68",68,"mmHg","",10,"WEEK 24",169,"2004-03-30",168
"23","CDISC01","VS","CDISC01.100014",5,"FRMSIZE","Body Frame Size","","MEDIUM","","MEDIUM",NA,"","",1,"SCREEN",-13,"2003-10-06",-9
"24","CDISC01","VS","CDISC01.100014",6,"HEIGHT","Height","","60.5","IN","153.7",153.7,"cm","Y",1,"SCREEN",-13,"2003-10-06",-9
"25","CDISC01","VS","CDISC01.100014",7,"PULSE","Pulse Rate","","70","BEATS/MIN","70",70,"BEATS/MIN","",1,"SCREEN",-13,"2003-10-06",-9
"26","CDISC01","VS","CDISC01.100014",8,"PULSE","Pulse Rate","","74","BEATS/MIN","74",74,"BEATS/MIN","Y",2,"BASELINE",1,"2003-10-15",1
"27","CDISC01","VS","CDISC01.100014",9,"PULSE","Pulse Rate","","84","BEATS/MIN","84",84,"BEATS/MIN","",3,"WEEK 2",15,"2003-10-31",17
"28","CDISC01","VS","CDISC01.100014",10,"PULSE","Pulse Rate","","84","BEATS/MIN","84",84,"BEATS/MIN","",10,"WEEK 24",169,"2004-03-30",168
"29","CDISC01","VS","CDISC01.100014",11,"SYSBP","Systolic Blood Pressure","SITTING","110","mmHg","110",110,"mmHg","",1,"SCREEN",-13,"2003-10-06",-9
"30","CDISC01","VS","CDISC01.100014",12,"SYSBP","Systolic Blood Pressure","SITTING","130","mmHg","130",130,"mmHg","Y",2,"BASELINE",1,"2003-10-15",1
"31","CDISC01","VS","CDISC01.100014",13,"SYSBP","Systolic Blood Pressure","SITTING","118","mmHg","118",118,"mmHg","",3,"WEEK 2",15,"2003-10-31",17
"32","CDISC01","VS","CDISC01.100014",14,"SYSBP","Systolic Blood Pressure","SITTING","170","mmHg","170",170,"mmHg","",10,"WEEK 24",169,"2004-03-30",168
"33","CDISC01","VS","CDISC01.100014",15,"WEIGHT","Weight","","120","LB","54.4",54.4,"kg","",1,"SCREEN",-13,"2003-10-06",-9
"34","CDISC01","VS","CDISC01.100014",16,"WEIGHT","Weight","","121","LB","54.9",54.9,"kg","Y",2,"BASELINE",1,"2003-10-15",1
"35","CDISC01","VS","CDISC01.100014",17,"WEIGHT","Weight","","124","LB","56.2",56.2,"kg","",3,"WEEK 2",15,"2003-10-31",17
"36","CDISC01","VS","CDISC01.100014",18,"WEIGHT","Weight","","138","LB","62.6",62.6,"kg","",10,"WEEK 24",169,"2004-03-30",168
"37","CDISC01","VS","CDISC01.200001",1,"DIABP","Diastolic Blood Pressure","SITTING","72","mmHg","72",72,"mmHg","",1,"SCREEN",-13,"2003-09-09",-21
"38","CDISC01","VS","CDISC01.200001",2,"DIABP","Diastolic Blood Pressure","SITTING","80","mmHg","80",80,"mmHg","Y",2,"BASELINE",1,"2003-09-30",1
"39","CDISC01","VS","CDISC01.200001",3,"DIABP","Diastolic Blood Pressure","SITTING","70","mmHg","70",70,"mmHg","",3,"WEEK 2",15,"2003-10-14",15
"40","CDISC01","VS","CDISC01.200001",4,"DIABP","Diastolic Blood Pressure","SITTING","76","mmHg","76",76,"mmHg","",10,"WEEK 24",169,"2004-02-02",126
"41","CDISC01","VS","CDISC01.200001",5,"FRMSIZE","Body Frame Size","","SMALL","","SMALL",NA,"","",1,"SCREEN",-13,"2003-09-09",-21
"42","CDISC01","VS","CDISC01.200001",6,"HEIGHT","Height","","63","IN","160",160,"cm","Y",1,"SCREEN",-13,"2003-09-09",-21
"43","CDISC01","VS","CDISC01.200001",7,"PULSE","Pulse Rate","","64","BEATS/MIN","64",64,"BEATS/MIN","",1,"SCREEN",-13,"2003-09-09",-21
"44","CDISC01","VS","CDISC01.200001",8,"PULSE","Pulse Rate","","68","BEATS/MIN","68",68,"BEATS/MIN","Y",2,"BASELINE",1,"2003-09-30",1
"45","CDISC01","VS","CDISC01.200001",9,"PULSE","Pulse Rate","","76","BEATS/MIN","76",76,"BEATS/MIN","",3,"WEEK 2",15,"2003-10-14",15
"46","CDISC01","VS","CDISC01.200001",10,"PULSE","Pulse Rate","","84","BEATS/MIN","84",84,"BEATS/MIN","",10,"WEEK 24",169,"2004-02-02",126
"47","CDISC01","VS","CDISC01.200001",11,"SYSBP","Systolic Blood Pressure","SITTING","136","mmHg","136",136,"mmHg","",1,"SCREEN",-13,"2003-09-09",-21
"48","CDISC01","VS","CDISC01.200001",12,"SYSBP","Systolic Blood Pressure","SITTING","140","mmHg","140",140,"mmHg","Y",2,"BASELINE",1,"2003-09-30",1
"49","CDISC01","VS","CDISC01.200001",13,"SYSBP","Systolic Blood Pressure","SITTING","152","mmHg","152",152,"mmHg","",3,"WEEK 2",15,"2003-10-14",15
"50","CDISC01","VS","CDISC01.200001",14,"SYSBP","Systolic Blood Pressure","SITTING","160","mmHg","160",160,"mmHg","",10,"WEEK 24",169,"2004-02-02",126
"51","CDISC01","VS","CDISC01.200001",15,"WEIGHT","Weight","","114","LB","51.7",51.7,"kg","",1,"SCREEN",-13,"2003-09-09",-21
"52","CDISC01","VS","CDISC01.200001",16,"WEIGHT","Weight","","113","LB","51.3",51.3,"kg","Y",2,"BASELINE",1,"2003-09-30",1
"53","CDISC01","VS","CDISC01.200001",17,"WEIGHT","Weight","","114","LB","51.7",51.7,"kg","",3,"WEEK 2",15,"2003-10-14",15
"54","CDISC01","VS","CDISC01.200001",18,"WEIGHT","Weight","","109","LB","49.4",49.4,"kg","",10,"WEEK 24",169,"2004-02-02",126
"55","CDISC01","VS","CDISC01.200002",1,"DIABP","Diastolic Blood Pressure","SITTING","82","mmHg","82",82,"mmHg","",1,"SCREEN",-13,"2003-09-18",-22
"56","CDISC01","VS","CDISC01.200002",2,"DIABP","Diastolic Blood Pressure","SITTING","88","mmHg","88",88,"mmHg","Y",2,"BASELINE",1,"2003-10-10",1
"57","CDISC01","VS","CDISC01.200002",3,"DIABP","Diastolic Blood Pressure","SITTING","78","mmHg","78",78,"mmHg","",3,"WEEK 2",15,"2003-10-24",15
"58","CDISC01","VS","CDISC01.200002",4,"DIABP","Diastolic Blood Pressure","SITTING","82","mmHg","82",82,"mmHg","",10,"WEEK 24",169,"2004-03-29",172
"59","CDISC01","VS","CDISC01.200002",5,"FRMSIZE","Body Frame Size","","MEDIUM","","MEDIUM",NA,"","",1,"SCREEN",-13,"2003-09-18",-22
"60","CDISC01","VS","CDISC01.200002",6,"HEIGHT","Height","","65.5","IN","166.4",166.4,"cm","Y",1,"SCREEN",-13,"2003-09-18",-22
"61","CDISC01","VS","CDISC01.200002",7,"PULSE","Pulse Rate","","58","BEATS/MIN","58",58,"BEATS/MIN","",1,"SCREEN",-13,"2003-09-18",-22
"62","CDISC01","VS","CDISC01.200002",8,"PULSE","Pulse Rate","","56","BEATS/MIN","56",56,"BEATS/MIN","Y",2,"BASELINE",1,"2003-10-10",1
"63","CDISC01","VS","CDISC01.200002",9,"PULSE","Pulse Rate","","70","BEATS/MIN","70",70,"BEATS/MIN","",3,"WEEK 2",15,"2003-10-24",15
"64","CDISC01","VS","CDISC01.200002",10,"PULSE","Pulse Rate","","60","BEATS/MIN","60",60,"BEATS/MIN","",10,"WEEK 24",169,"2004-03-29",172
"65","CDISC01","VS","CDISC01.200002",11,"SYSBP","Systolic Blood Pressure","SITTING","142","mmHg","142",142,"mmHg","",1,"SCREEN",-13,"2003-09-18",-22
"66","CDISC01","VS","CDISC01.200002",12,"SYSBP","Systolic Blood Pressure","SITTING","142","mmHg","142",142,"mmHg","Y",2,"BASELINE",1,"2003-10-10",1
"67","CDISC01","VS","CDISC01.200002",13,"SYSBP","Systolic Blood Pressure","SITTING","160","mmHg","160",160,"mmHg","",3,"WEEK 2",15,"2003-10-24",15
"68","CDISC01","VS","CDISC01.200002",14,"SYSBP","Systolic Blood Pressure","SITTING","142","mmHg","142",142,"mmHg","",10,"WEEK 24",169,"2004-03-29",172
"69","CDISC01","VS","CDISC01.200002",15,"WEIGHT","Weight","","123.5","LB","56",56,"kg","",1,"SCREEN",-13,"2003-09-18",-22
"70","CDISC01","VS","CDISC01.200002",16,"WEIGHT","Weight","","130","LB","59",59,"kg","Y",2,"BASELINE",1,"2003-10-10",1
"71","CDISC01","VS","CDISC01.200002",17,"WEIGHT","Weight","","131","LB","59.4",59.4,"kg","",3,"WEEK 2",15,"2003-10-24",15
"72","CDISC01","VS","CDISC01.200002",18,"WEIGHT","Weight","","128","LB","58.1",58.1,"kg","",10,"WEEK 24",169,"2004-03-29",172
